Folder: Probabilistic-Response-Evaluation-of-RC-Columns-under-Blast-Loads-with-NGBoost

File: Dataset.csv
Length (mm),Width (mm),Height (mm),Concrete compressive strength (MPa),Longitudinal steel yield strength (MPa),Longitudinal steel reinforcement ratio (%),Transverse steel yield strength (MPa),Transverse steel reinforcement ratio (%),Axial load ratio,Spacing of transverse steel (mm),Reflected pressure (MPa),Reflected impulse (MPa-msec),Maximum displacement height (mm),Maximum displacement (mm)
150,100,1980,46.5,483,2.67,580,1.52,0,50,0.022,0.12,990,13.9
150,100,1980,46.5,483,2.67,580,1.52,0.42,50,0.04,0.426,990,66.4
150,100,1980,58,483,2.67,580,1.52,0.35,50,0.09,0.362,990,76.4
150,100,1980,58,483,2.67,580,3.04,0.35,25,0.058,0.228,990,18.2
150,100,1980,58,483,2.67,580,1.52,0.35,50,0.053,0.324,990,45.5
150,100,1980,58,483,2.67,580,3.04,0.35,25,0.045,0.305,990,52
150,100,1980,58,483,2.67,580,1.52,0.35,50,0.09,0.763,990,208
150,100,1980,58,483,2.67,580,3.04,0.35,25,0.079,0.656,990,264
150,100,1980,58,483,2.67,580,1.52,0.35,50,0.068,0.683,990,171
150,100,1980,58,483,2.67,580,3.04,0.35,25,0.064,0.6,990,156
150,100,1980,58,483,2.67,580,3.04,0.35,25,0.029,0.438,990,58
150,100,1980,58,483,1.78,580,0.86,0.28,75,0.061,0.386,990,30.2
150,100,1980,58,483,1.78,580,0.86,0.28,75,0.048,0.8,990,20.8
150,100,1980,58,483,2.67,580,1.52,0.36,50,0.065,0.765,990,171.1
150,100,1980,58,483,2.67,580,3.04,0.36,25,0.063,0.622,990,156
150,100,1980,56.2,483,2.67,580,1.52,0.37,50,0.059,0.686,990,160.9
150,100,1980,56.2,483,2.67,580,3.04,0.37,25,0.053,0.555,990,135.3
150,150,1980,69.6,483,1.78,580,1.01,0.25,75,0.081,1.074,990,158
150,150,1980,69.6,483,1.78,580,2.01,0.25,37.5,0.07,0.687,990,129
150,150,1980,69.6,483,1.78,580,1.01,0.25,75,0.073,0.643,990,85.5
150,150,1980,69.6,483,1.78,580,2.01,0.25,37.5,0.075,0.787,990,99.5
150,150,1980,69.6,483,1.78,580,1.01,0.25,75,0.047,0.372,990,24.3
150,150,1980,69.6,483,1.78,580,2.01,0.25,37.5,0.047,0.474,990,22.7
150,150,1980,69.6,483,1.78,580,1.01,0.25,75,0.041,0.356,990,32.6
150,150,1980,69.6,483,1.78,580,2.01,0.25,37.5,0.047,0.443,990,31.4
150,150,1980,49.5,497,1.78,580,1.01,0.31,75,0.039,0.378,990,20
150,150,1980,49.5,497,1.78,580,0.5,0.35,150,0.038,0.38,990,20.5
150,150,1980,49.5,497,1.78,580,1.01,0.35,75,0.012,0.141,990,4.1
150,150,1980,49.5,497,1.78,580,1.01,0.35,75,0.084,0.983,990,72.5
150,150,1980,49.5,497,1.78,580,1.01,0.35,75,0.035,0.376,990,24.4
150,150,1980,49.5,497,1.78,580,1.01,0.35,75,0.079,1.61,990,75.8
150,150,1980,49.5,497,1.78,580,1.01,0.35,75,0.068,0.813,990,44
150,150,1980,49.5,497,1.78,580,1.01,0.12,75,0.011,0.146,990,4.5
150,150,1980,49.5,497,1.78,580,1.01,0.12,75,0.083,1.037,990,75.8
150,150,2438,44,572,1.78,521,2.09,0,37.5,0.022,0.237,1219,53.3
150,150,2438,44,572,1.78,521,2.09,0,37.5,0.031,0.31,1219,63.4
150,150,2438,44,572,1.78,521,2.09,0.37,37.5,0.017,0.18,1219,23.9
150,150,2438,44,572,1.78,521,2.09,0.37,37.5,0.03,0.33,1219,33.5
150,150,2438,44,572,1.78,521,2.09,0.38,37.5,0.049,0.482,1219,105
150,150,2438,33,572,1.78,521,0.79,0.48,100,0.048,0.473,1219,53.5
150,150,2438,33,572,1.78,521,0.79,0.5,100,0.047,0.438,1219,69.1
150,150,2438,33,572,1.78,521,0.79,0.5,100,0.049,0.463,1219,51.3
150,150,2438,44,572,1.78,521,2.09,0.4,37.5,0.051,0.511,1219,148.8
150,150,2438,44,572,1.78,521,2.09,0.38,37.5,0.059,0.587,1219,172.1
150,150,2438,44,572,1.78,521,2.09,0.38,37.5,0.05,0.463,1219,62
150,150,2438,33,572,1.78,521,0.79,0.47,100,0.061,0.625,1219,257
150,150,2438,33,572,1.78,521,0.79,0.49,100,0.055,0.532,1219,96.6
152,152,2468,51.6,483,1.72,604,1.09,0.24,75,0.088,0.781,1234,126.2
152,152,2468,51.6,483,1.72,604,2.18,0.24,38,0.079,0.756,1234,92
152,152,2468,53.8,483,1.72,604,1.09,0.23,75,0.041,0.4,1234,21.3
152,152,2468,54.7,483,1.72,604,1.09,0.22,75,0.041,0.41,1234,29.3
152,152,2468,46.1,483,1.72,604,1.09,0.26,75,0.041,0.411,1234,23.3
152,152,2468,56.6,483,1.72,604,1.09,0.22,75,0.039,0.395,1234,24.1
152,152,2468,53.8,483,1.72,604,2.18,0.23,38,0.046,0.416,1234,26.6
152,152,2468,40.5,483,1.72,604,1.09,0.29,75,0.013,0.126,1234,8
152.4,152.4,2438,40.56,464,2.22,542,1.08,0.29,75,0.022,0.242,1219,10.7
152.4,152.4,2438,40.56,449,3.44,542,1.08,0.26,75,0.022,0.193,1219,7.41
152.4,152.4,2438,40.56,449,3.44,542,1.08,0.26,75,0.083,1.098,1219,162.77
152.4,152.4,2438,93.94,474,1.72,542,1.08,0.15,75,0.075,0.779,1219,132.57
152.4,152.4,2438,93.94,474,1.72,542,2.17,0.15,38,0.074,0.731,1219,106.13
152.4,152.4,2438,84.68,464,2.22,542,1.08,0.16,75,0.078,0.875,1219,82.35
152.4,152.4,2438,84.68,449,3.44,542,1.08,0.15,75,0.039,0.372,1219,16.02
152.4,152.4,2438,93.56,474,1.72,542,1.08,0.15,75,0.024,0.227,1219,9.08
152.4,152.4,2438,93.35,474,1.72,542,1.08,0.15,75,0.023,0.216,1219,7.07
152.4,152.4,2438,96.05,464,2.22,542,1.08,0.14,75,0.022,0.223,1219,7.62
152.4,152.4,2438,96.05,464,2.22,542,1.08,0.14,75,0.086,1.01,1219,153.13
152.4,152.4,2438,100.45,449,3.44,542,1.08,0.13,75,0.064,0.752,1219,54.62
152.4,152.4,2438,103.59,987,1.22,542,1.08,0.13,75,0.037,0.42,1219,18.35
152.4,152.4,2438,69.43,889,2.22,542,1.08,0.16,75,0.035,0.443,1219,16.76
152.4,152.4,2438,91.28,889,2.22,542,2.17,0.13,38,0.024,0.22,1219,6.82
152.4,152.4,2438,91.28,889,2.22,542,2.17,0.13,38,0.075,1.087,1219,84.3
152.4,152.4,2438,88.04,821,3.44,542,1.08,0.13,75,0.069,0.746,1219,37.06
152.4,152.4,2438,88.16,987,1.22,542,1.08,0.15,75,0.023,0.255,1219,12.37
152.4,152.4,2438,88.16,987,1.22,542,1.08,0.15,75,0.076,1.004,1219,516.77
152.4,152.4,2438,78.74,889,2.22,542,1.08,0.15,75,0.068,0.794,1219,40.65
152.4,152.4,2438,89.78,821,3.44,542,1.08,0.12,75,0.033,0.441,1219,15.59
152.4,152.4,2438,89.78,821,3.44,542,1.08,0.12,75,0.078,1.049,1219,87.89
152,152,2468,154,486,0.43,604,1.08,0.09,75,0.042,0.326,1234,15.68
152,152,2468,155,486,0.43,604,2.17,0.09,38,0.075,0.803,1234,61.03
152,152,2468,154,486,0.43,604,2.17,0.09,38,0.08,0.746,1234,41.36
152,152,2468,155,457,0.87,604,1.08,0.09,75,0.077,0.79,1234,51.97
152,152,2468,130,457,0.87,604,1.08,0.1,75,0.041,0.382,1234,20.2
152,152,2468,130,457,0.87,604,1.08,0.1,75,0.082,0.722,1234,82.8
152,152,2468,125,956,0.31,604,1.08,0.11,75,0.072,0.779,1234,87.94
152,152,2468,142,956,0.31,604,1.08,0.1,75,0.087,0.937,1234,375.5
152,152,2468,108,956,0.31,604,1.08,0.12,75,0.081,0.864,1234,94.32
152,152,2468,125,956,0.31,604,2.17,0.11,38,0.083,0.926,1234,310.55
152,152,2468,166,956,0.31,604,2.17,0.08,38,0.084,0.986,1234,360.12
152,152,2468,51.56,480,1.72,600,1.08,0.25,75,0.088,0.781,1234,126.23
152,152,2468,51.78,480,1.72,600,2.17,0.25,38,0.079,0.756,1234,91.99
152,152,2468,53.84,480,1.72,600,1.08,0.24,75,0.041,0.4,1234,21.29
152,152,2468,60.58,480,1.72,600,2.17,0.22,38,0.046,0.416,1234,26.62
152,152,2468,54.67,480,1.72,600,1.08,0.24,75,0.016,0.193,1234,11.46
152,152,2468,40.46,480,1.72,600,1.08,0.3,75,0.013,0.126,1234,7.98
152,152,2468,46.03,480,1.72,600,1.08,0.27,75,0.012,0.127,1234,5.11
152,152,2468,56.64,480,1.72,600,1.08,0.23,75,0.013,0.138,1234,5.73
152,152,2468,144.73,480,1.72,600,1.08,0.1,75,0.013,0.108,1234,5.15
152,152,2468,144.73,480,1.72,600,1.08,0.1,75,0.089,0.938,1234,309.48
152,152,2468,149.34,480,1.72,600,2.17,0.1,38,0.072,0.694,1234,47.43
152,152,2468,152.6,480,1.72,600,1.08,0.09,75,0.013,0.123,1234,4.74
152,152,2468,152.6,480,1.72,600,1.08,0.09,75,0.091,1.002,1234,94.25
152,152,2468,153.91,480,1.72,600,2.17,0.09,38,0.076,0.73,1234,69.21
152,152,2468,165.39,480,1.72,600,1.08,0.09,75,0.075,0.717,1234,56.28
152,152,2468,48,424,1.23,617,1.08,0.28,75,0.083,0.787,1234,139.2
152,152,2468,150,950,1.23,617,1.08,0.09,75,0.102,0.952,1234,300.5
152,152,2468,150,950,1.84,617,1.08,0.09,75,0.105,1.004,1234,144.5
152,152,2468,154,825,2.18,617,1.08,0.09,75,0.081,0.773,1234,160.1
152,152,2468,154,845,3.4,617,1.08,0.08,75,0.105,1.005,1234,68.4
152,152,2468,151,922,4.9,617,1.08,0.08,75,0.05,0.466,1234,19.2
152,152,2468,151,922,4.9,617,1.08,0.08,75,0.08,0.931,1234,51.5
152,152,2468,139,630,1.23,617,1.08,0.1,75,0.084,0.809,1234,70.2
152,152,2468,146,630,1.23,617,1.08,0.1,75,0.082,0.81,1234,73.4
152,152,2468,132,630,1.23,617,1.08,0.11,75,0.051,0.459,1234,22.6
152,152,2468,132,794,1.23,617,1.08,0.11,75,0.082,0.81,1234,63.7
152,152,2468,151,630,1.84,617,1.08,0.09,75,0.104,0.969,1234,102.2
152,152,2468,56,606,2.18,617,1.08,0.21,75,0.086,0.802,1234,76.9
152,152,2468,56,606,2.18,617,2.17,0.21,38,0.085,0.775,1234,83.5
152,152,2468,149,606,2.18,617,1.08,0.09,75,0.088,0.813,1234,50.6
152,152,2468,149,600,3.4,617,1.08,0.09,75,0.046,0.439,1234,20
152,152,2468,149,600,3.4,617,1.08,0.09,75,0.11,0.89,1234,72.1
152,152,2468,145,486,1.73,604,1.08,0.1,75,0.08,0.75,1234,68
152,152,2468,153,486,1.73,604,1.08,0.1,75,0.097,0.9,1234,94
152,152,2468,149,486,1.73,604,2.17,0.1,38,0.085,1.355,1234,270
152,152,2468,138,460,3.46,604,1.08,0.1,75,0.08,0.75,1234,52
152,152,2468,150,950,1.84,604,1.08,0.09,75,0.097,0.9,1234,145
300,150,2440,38.5,445,1.78,582,0.41,0,150,0.051,0.307,1220,49.9
300,150,2440,32.8,445,1.78,582,0.41,0,150,0.016,0.146,1220,8
300,150,2440,32.8,445,1.78,582,0.41,0,150,0.058,0.396,1220,49.6
300,150,2440,30.8,445,1.78,582,0.41,0,150,0.02,0.144,1220,9.6
300,150,2440,30.8,445,1.78,582,0.41,0,150,0.06,0.419,1220,46.6
300,150,2440,30.8,445,1.78,582,0.41,0,150,0.088,1.129,1220,141.8
300,150,2440,30.4,445,1.78,582,0.41,0,150,0.052,0.398,1220,33.6
152,152,2468,52,483,1.72,604,1.08,0.4,75,0.088,0.781,1234,126.2
152,152,2468,52,483,1.72,604,2.17,0.4,38,0.079,0.756,1234,92
152,152,2468,145,483,1.72,604,1.08,0.16,75,0.044,0.334,1234,21.2
152,152,2468,153,483,1.72,604,1.08,0.15,75,0.013,0.124,1234,4.7
152,152,2468,153,483,1.72,604,1.08,0.15,75,0.091,1.002,1234,94.3
152,152,2468,165,483,1.72,604,1.08,0.14,75,0.075,0.717,1234,56.3
152,152,2468,149,483,1.72,604,2.17,0.16,38,0.046,0.381,1234,20.2
152,152,2468,149,483,1.72,604,2.17,0.16,38,0.098,0.771,1234,269.5
152,152,2468,138,457,3.46,604,1.08,0.15,75,0.042,0.422,1234,19.9
152,152,2468,138,457,3.46,604,1.08,0.15,75,0.086,0.859,1234,88.1
152,152,2468,145,486,1.72,604,2.17,0.16,38,0.042,0.441,1234,19.6
152,152,2468,128,457,3.46,604,1.08,0.16,75,0.041,0.427,1234,20.2
152,152,2468,128,457,3.46,604,1.08,0.16,75,0.082,0.747,1234,82.8
160,160,2468,25.8,411,2.78,595,0.42,0.4,150,0.068,0.689,1234,127.6
160,160,2468,25.8,411,2.78,595,0.84,0.4,75,0.067,0.53,1234,105.69
160,160,2468,152,411,2.78,595,0.84,0.15,75,0.07,0.719,1234,79.71
200,150,2440,58.4,484,1.3,413,0.81,0.3,75,0.062,0.398,1220,31.8
300,300,3000,53.3,453,1.4,335,0.62,0.12,200,0.092,0.108,750,15.7